

Sample:                                                                 
Filename: D:\Work\Deimos\Au_d_Silena.chn
File created or changed:   13-Dec-18
No.of channels:  8050
Measurement date: 10/Nov/18     18:39
Evaluated : 17-Dec-18 14:28:50
Live time: 47484.0 s   Real time: 48389.0 s    Dead time:  1.87 %
Counts total:  23900097    Input counts/sec:    503
            Satellite peaks:
s10: 0.000  s11: 0.000  s12: 0.000
d10:   2.5  d11:   4.0  d12:  10.0
s20: 0.000  s21: 0.000  s22: 0.000
d20:   0.0  d21:   0.0  d22:   0.0
base: 0.00000

            ENERGY CALIBRATION
 4.609794266957E+0000  3.782587121646E-0001  0.000000000000E+0000  0.000000000000E+0000

            FWHM CALIBRATION
 3.834969655330E+0000  5.038360242757E-0004  0.000000000000E+0000

Energy: preliminary linear calibration
FWHM: preliminary linear calibration

  channel  cherr    energy      area aerr%  fwhm chisq it left   n  lim isotope
==============================================================================
  144.563  0.011    59.292  238290.3   0.4  5.06 159.26  43  133  62 1944
  150.098  0.006    61.386  474354.3   0.3  5.06 159.26  43  133  62 1945
  176.897  0.007    71.523  270699.9   0.3  5.07 159.26  43  133  62 2181
  183.713  0.018    74.101   96518.6   0.7  5.08 159.26  43  133  62 2160
  203.859  0.113    81.721    9926.1   7.2  4.64  1.08  10  194  24 1951
  211.035  0.217    84.436    5453.1  10.9  4.64  1.08  10  194  24 1952
  244.076  0.086    96.934   11056.5   6.7  4.14  0.96  11  223  36 1788
  377.771  0.110   147.505    9220.6   9.1  3.91  2.12  11  358  35 1929
  620.735  0.039   239.408   19795.0   3.1  4.00  6.21  10  601  41 1448
  766.300  0.008   294.469  125076.0   0.6  4.48 27.91  11  745  35 1228
  858.646  0.002   329.400  702329.0   0.2  4.32 201.61  11  837  44 1062
  870.609  0.004   333.925  351824.9   0.2  4.32 201.61  11  837  44 1044
  930.632  0.002   356.630 1310892.2   0.1  4.33 539.13  14  909  42  950
  954.883  0.036   365.803   12997.3   2.9  4.10  2.32  10  938  36  865
 1078.866  0.002   412.700  914806.2   0.2  4.37 488.07   9 1058  34  799
 1116.291  0.008   426.857   81723.8   0.7  4.22 51.04  10 1095  31  731
 1130.841  0.144   432.360    2370.5  11.8  4.08  3.42  30 1122  23  698
 1214.167  0.177   463.879    2105.7  12.5  4.61  0.95   9 1194  36  682
 1266.425  0.048   483.646    7541.7   3.7  4.23  1.96  10 1251  35  600
 1340.528  0.027   511.676   39923.6   1.2  7.84  3.64  11 1319  43 1060
 1388.463  0.041   529.808   14767.9   2.3  5.97  3.94  12 1366  34  784
 1478.231  0.156   563.763    1966.7   8.1  4.53  0.75   9 1456  59  555
 1494.772  0.103   570.020    3052.2   6.6  4.53  0.75   9 1456  59  557
 1531.338  0.030   583.852   12714.1   2.2  4.58  1.33  11 1511  32  547
 1546.896  0.219   589.737    1700.6  10.1  5.32  0.62  10 1537  40  627
 1559.032  0.121   594.327    3161.2   7.1  5.33  0.62  10 1537  40  627
 1588.179  0.023   605.352   19137.4   1.3  4.87  6.49  12 1567  47  576
 1600.079  0.022   609.854   20798.7   1.3  4.88  6.49  12 1567  47  571
 1633.027  0.028   622.316   16207.0   1.8  5.13  2.21  11 1612  39  567
 1694.641  0.030   645.622   12069.9   2.1  4.65  1.38  10 1673  40  488
 1738.216  0.021   662.105   19606.8   1.5  4.60  2.62   9 1716  37  479
 1775.481  0.062   676.201    4938.7   4.3  4.74  1.16   9 1758  40  491
 1809.247  0.037   688.973    8861.4   2.6  4.57  1.41  10 1788  38  456
 1848.233  0.128   703.720    2354.7   9.4  4.97  2.54  11 1826  29  491
 1911.110  0.096   727.504    2879.5   6.6  4.73  0.71   9 1889  38  452
 2019.304  0.139   768.429    2275.0   9.8  5.31  1.98  13 1997  29  493
 2091.702  0.024   795.814   18312.7   1.6  5.23  2.79  13 2069  32  467
 2108.540  0.186   802.183    1275.0  11.8  4.65  1.96  13 2099  46  415
 2131.230  0.251   810.766     914.0  13.4  4.67  1.96  13 2099  46  413
 2261.635  0.195   860.093    2447.5   8.6  7.54  1.91  27 2240  40  632
 2395.782  0.033   910.835   10773.5   2.1  5.16  1.77  11 2379  34  431
 2432.840  0.194   924.853    1537.8  11.0  5.73  1.04  11 2411  40  464
 2456.368  0.181   933.752    1222.9   7.7  4.72  1.02  10 2437  46  379
 2468.208  0.056   938.231    4606.1   3.9  4.73  1.02  10 2437  46  381
 2493.671  0.038   947.862    9433.2   2.3  5.39  1.50  11 2474  42  439
 2536.769  0.109   964.165    2671.7   4.5  5.49  1.52  12 2513  44  440
 2547.964  0.049   968.400    6949.7   3.0  5.50  1.52  12 2513  44  440
 2631.629  0.286  1000.046    1266.9  13.6  6.86  0.94  14 2607  45  528
 2730.847  0.189  1037.576    1624.1  10.2  6.10  0.93  21 2708  38  452
 2757.665  0.076  1047.720    3270.3   5.0  4.97  1.39  11 2736  45  367
 2903.712  0.044  1102.964    7855.9   2.6  5.56  1.40  11 2882  42  414
 2946.666  0.049  1119.212    6534.3   3.0  5.44  1.11  11 2927  34  422
 3026.770  0.063  1149.512    4997.6   3.5  5.71  1.55  12 3002  57  425
 3040.855  0.134  1154.840    2129.6   5.1  5.72  1.55  12 3002  57  433
 3090.372  0.056  1173.570    9333.0   2.4  7.46  5.26  17 3068  70  564
 3112.848  0.164  1182.072    2533.3   4.7  7.47  5.26  17 3068  70  582
 3205.899  0.074  1217.269    4407.7   4.2  5.79  0.93  11 3180  47  431
 3257.076  0.117  1236.627    2500.2   6.6  5.70  0.95  10 3235  46  433
 3505.788  0.093  1330.705    2928.7   3.8  6.19  3.23  12 3481  69  357
 3530.647  0.068  1340.108    4377.5   3.2  6.21  3.23  12 3481  69  368
 3624.258  0.140  1375.517    1822.4   7.1  6.49  1.26  12 3601  42  343
 3687.309  0.332  1399.366     519.2  15.5  5.51  1.07  20 3681  38  271
 3704.721  0.137  1405.953    1391.8   8.3  5.52  1.07  20 3681  38  277
 3740.256  0.188  1419.394    1077.4  10.3  6.04  1.28  10 3725  36  302
 3815.012  0.207  1447.671     993.6  11.3  6.06  0.82  11 3796  32  287
 3843.566  0.009  1458.472   94966.5   0.5  6.14 16.88  12 3820  68  310
 3864.636  0.021  1466.442   20217.5   0.8  6.15 16.88  12 3820  68  309
 3973.006  0.329  1507.434    1150.4  10.7 10.21  1.46  24 3946  47  414
 4112.743  0.240  1560.291     857.9  11.5  7.12  1.34  15 4088  39  269
 4179.472  0.166  1585.532    1198.3   5.5  6.35  1.81  16 4164  47  225
 4190.897  0.064  1589.853    5581.8   2.5  6.36  1.81  16 4164  47  272
 4198.592  0.065  1592.764    5509.3   2.5  6.36  1.81  16 4164  47  272
 4257.091  0.356  1614.891     584.6  11.4  6.84  0.74  21 4232  50  255
 4266.386  0.205  1618.407    1086.3   8.3  6.84  0.74  21 4232  50  255
 4293.901  0.243  1628.815    1367.4   8.8  9.26  1.20  17 4273  35  353
 4371.288  0.350  1658.088     389.5  14.8  5.77  1.82  25 4346  76  212
 4395.967  0.264  1667.423     529.1  13.1  5.78  1.82  25 4346  76  214
 4513.415  0.095  1711.848    1857.2   5.1  6.07  1.33  11 4488  44  200
 4551.643  0.138  1726.309    1055.9   7.0  5.77  1.23  11 4526  59  189
 4566.303  0.193  1731.854     682.7   8.3  5.78  1.23  11 4526  59  195
 4643.490  0.043  1761.050    6210.4   2.2  6.33  1.18  11 4620  50  207
 4698.700  0.149  1781.934    1039.8   7.8  6.29  1.19  11 4673  42  203
 4729.649  0.098  1793.641    1728.4   5.4  6.01  0.89  11 4707  38  179
 4814.913  0.256  1825.893     549.0   9.0  6.77  1.22  12 4789  65  183
 4829.792  0.163  1831.521     967.7   7.1  6.78  1.22  12 4789  65  191
 4861.836  0.182  1843.642     771.5   9.3  6.49  1.10  11 4840  41  178
 4964.449  0.040  1882.456    8861.2   1.8  7.56  1.54  12 4936  52  192
 5063.755  0.049  1920.019    5553.0   2.4  7.16  2.84  12 5037  38  178
 5155.499  0.245  1954.722     414.6  13.7  5.97  1.07  13 5130  39  138
 5183.467  0.118  1965.302    1088.1   6.4  6.12  1.02  11 5164  40  138
 5378.410  0.034  2039.040    9205.2   1.7  6.94  1.99  11 5351  51  144
 5536.183  0.124  2098.719    1761.0   4.8  8.57  1.32  12 5507  49  166
 5563.954  0.204  2109.224     526.5   9.1  6.19  0.99  11 5545  56  150
 5575.843  0.254  2113.721     398.9  10.0  6.20  0.99  11 5545  56  150
 5801.175  0.086  2198.955    1931.2   4.2  6.81  0.76  12 5772  46  142
 5829.926  0.241  2209.830     496.4  11.5  6.96  1.32  11 5808  44  155
 6084.470  0.314  2306.113     382.6  14.2  7.30  1.06  12 6052  54  152
 6442.830  0.209  2441.666     601.0   8.9  7.93  1.32  12 6417  43  129
 6882.044  0.029  2607.803   13396.7   1.3  7.69  4.35  11 6853  43   72
